Def. Height/mm,Force/N
0,43.94
0,43.93
0,43.92
0,43.8
0,44.18
0,44.96
0.01,45.87
0.01,46.42
0.01,47.03
0.01,47.63
0.02,48.23
0.02,48.77
0.02,49.32
0.02,49.62
0.02,49.98
0.03,50.44
0.03,50.89
0.03,51.31
0.03,51.86
0.04,52.54
0.04,53.16
0.04,53.75
0.05,54.45
0.05,55.13
0.05,55.76
0.06,56.41
0.06,57.13
0.06,57.75
0.07,58.34
0.07,58.76
0.07,59.12
0.08,59.32
0.08,59.48
0.08,59.51
0.09,59.62
0.09,59.58
0.09,59.65
0.1,59.71
0.1,59.9
0.1,60.06
0.11,60.3
0.11,60.65
0.11,60.97
0.12,61.21
0.12,61.47
0.12,61.67
0.13,61.65
0.13,61.63
0.13,61.62
0.14,61.52
0.14,61.5
0.14,61.56
0.15,61.7
0.15,61.8
0.15,61.89
0.16,62.15
0.16,62.47
0.16,62.77
0.17,63.21
0.17,63.81
0.17,64.41
0.18,65.04
0.18,65.79
0.18,66.5
0.19,67.13
0.19,67.76
0.19,68.47
0.2,69.06
0.2,69.7
0.2,70.45
0.21,70.98
0.21,71.54
0.21,72.15
0.22,72.73
0.22,73.3
0.22,74.04
0.23,74.63
0.23,75.23
0.23,75.88
0.24,76.46
0.24,76.94
0.24,77.22
0.25,76.99
0.25,76.39
0.25,75.83
0.26,75.26
0.26,74.86
0.26,74.92
0.27,75.16
0.27,75.36
0.27,75.48
0.28,75.66
0.28,75.83
0.28,76
0.29,76.24
0.29,76.59
0.29,76.85
0.3,77.18
0.3,77.68
0.3,78.06
0.31,78.5
0.31,79.01
0.31,79.48
0.32,79.89
0.32,80.39
0.32,80.88
0.33,81.4
0.33,81.95
0.33,82.49
0.34,83.06
0.34,83.61
0.34,84.18
0.35,84.83
0.35,85.46
0.35,86.14
0.36,86.89
0.36,87.65
0.36,88.44
0.37,89.5
0.37,90.69
0.37,92.19
0.38,93.94
0.38,95.85
0.38,97.88
0.38,98.91
0.39,100.82
0.39,102.62
0.39,104.24
0.4,105.71
0.4,106.93
0.4,108
0.41,108.88
0.41,109.5
0.41,110.02
0.42,110.39
0.42,110.56
0.42,110.68
0.43,110.82
0.43,110.76
0.43,110.68
0.44,110.75
0.44,110.94
0.44,111.02
0.45,111.25
0.45,111.58
0.45,111.97
0.46,112.35
0.46,112.87
0.46,113.35
0.47,113.88
0.47,114.33
0.47,114.79
0.48,115.2
0.48,115.66
0.48,116.09
0.49,116.51
0.49,116.87
0.49,117.28
0.5,117.59
0.5,117.89
0.5,118.07
0.51,118.15
0.51,118.14
0.51,118.22
0.52,118.18
0.52,118.15
0.52,118.44
0.53,118.82
0.53,119.24
0.53,119.8
0.54,120.5
0.54,121.14
0.54,121.72
0.55,122.25
0.55,122.76
0.55,123.3
0.56,123.81
0.56,124.73
0.56,125.95
0.57,127.55
0.57,129.41
0.57,130.45
0.57,131.47
0.58,132.49
0.58,133.59
0.58,134.7
0.58,135.81
0.58,136.91
0.58,137.99
0.59,139.07
0.59,140.2
0.59,141.25
0.59,142.36
0.59,143.4
0.59,144.51
0.6,145.6
0.6,146.67
0.6,147.7
0.6,149.63
0.61,151.48
0.61,153.28
0.61,154.83
0.62,156.28
0.62,157.75
0.62,159.21
0.63,160.77
0.63,162.34
0.63,164.06
0.64,165.95
0.64,167.89
0.64,169.77
0.65,171.77
0.65,172.82
0.65,173.92
0.65,174.97
0.65,176.03
0.65,177.09
0.66,178.19
0.66,179.32
0.66,180.48
0.66,181.58
0.66,182.7
0.66,183.84
0.67,184.93
0.67,186.06
0.67,187.19
0.67,188.37
0.67,189.57
0.67,190.76
0.68,191.88
0.68,193.16
0.68,194.36
0.68,195.55
0.68,196.76
0.68,197.96
0.69,199.18
0.69,200.34
0.69,201.5
0.69,202.72
0.69,203.98
0.69,205.13
0.7,206.4
0.7,207.67
0.7,208.92
0.7,210.16
0.7,211.44
0.7,212.8
0.71,214.22
0.71,215.65
0.71,217.1
0.71,218.7
0.71,220.28
0.71,221.88
0.72,223.61
0.72,225.34
0.72,227.2
0.72,229.08
0.72,230.94
0.72,232.89
0.73,234.91
0.73,236.87
0.73,238.86
0.73,240.94
0.73,242.97
0.73,245.11
0.74,247.19
0.74,249.28
0.74,251.42
0.74,253.56
0.74,255.69
0.74,257.89
0.75,260.06
0.75,262.31
0.75,264.56
0.75,266.84
0.75,269.09
0.75,271.39
0.76,273.72
0.76,276.05
0.76,278.47
0.76,280.89
0.76,283.33
0.76,285.78
0.77,288.28
0.77,290.77
0.77,293.31
0.77,295.84
0.77,298.45
0.77,301.08
0.78,303.63
0.78,306.24
0.78,308.86
0.78,311.53
0.78,314.19
0.78,316.89
0.79,319.56
0.79,322.34
0.79,325.11
0.79,327.89
0.79,330.75
0.79,333.56
0.8,336.42
0.8,339.24
0.8,342.11
0.8,345.02
0.8,347.99
0.8,350.91
0.81,353.83
0.81,356.78
0.81,359.77
0.81,362.75
0.81,365.75
0.81,368.77
0.82,371.88
0.82,375.05
0.82,378.22
0.82,381.47
0.82,384.77
0.82,387.95
0.83,391.24
0.83,394.59
0.83,397.94
0.83,401.41
0.83,404.77
0.83,408.16
0.84,411.59
0.84,414.97
0.84,418.38
0.84,421.84
0.84,425.33
0.84,428.78
0.85,432.31
0.85,435.8
0.85,439.33
0.85,442.74
0.85,446.16
0.85,449.63
0.86,453.17
0.86,456.75
0.86,460.3
0.86,463.83
0.86,467.38
0.86,470.89
0.87,474.45
0.87,478.09
0.87,481.81
0.87,485.55
0.87,489.28
0.87,493.06
0.88,496.8
0.88,500.59
0.88,504.38
0.88,508.22
0.88,512.06
0.88,515.97
0.89,519.89
0.89,523.77
0.89,527.58
0.89,531.38
0.89,535.25
0.89,539.17
0.9,543.06
0.9,547.02
0.9,551.02
0.9,554.94
0.9,558.86
0.9,562.95
0.91,567.24
0.91,571.67
0.91,576.05
0.91,580.36
0.91,584.74
0.91,589.08
0.92,593.45
0.92,597.8
0.92,602.11
0.92,606.17
0.92,609.94
0.92,613.42
0.93,616.78
0.93,620.11
0.93,623.34
0.93,626.69
0.93,630.13
0.93,633.66
0.94,637.24
0.94,640.91
0.94,644.74
0.94,648.83
0.94,653.24
0.94,657.83
0.95,662.49
0.95,666.99
0.95,671.39
0.95,675.77
0.95,680.17
0.95,684.64
0.96,689.14
0.96,693.61
0.96,697.95
0.96,702.3
0.96,706.58
0.96,710.89
0.97,715.2
0.97,719.55
0.97,723.89
0.97,728.27
0.97,732.67
0.97,737.05
0.98,741.45
0.98,745.8
0.98,750.2
0.98,754.67
0.98,759.24
0.98,763.8
0.99,768.3
0.99,772.89
0.99,777.45
0.99,781.99
0.99,786.49
0.99,791.05
1,795.74
1,800.42
1,805.11
1,809.77
1,814.52
1,819.17
1.01,823.89
1.01,828.58
1.01,833.42
1.01,838.2
1.01,842.95
1.01,847.61
1.02,852.27
1.02,856.95
1.02,861.61
1.02,866.24
1.02,870.8
1.02,875.42
1.03,880.02
1.03,884.64
1.03,889.24
1.03,894.05
1.03,898.77
1.03,903.52
1.04,908.33
1.04,913.2
1.04,918.2
1.04,923.17
1.04,928.11
1.04,933.14
1.05,938.17
1.05,943.08
1.05,948.05
1.05,953.08
1.05,958.11
1.05,963.17
1.06,968.17
1.06,973.17
1.06,978.27
1.06,983.24
1.06,988.27
1.06,993.36
1.07,998.45
1.07,1003.58
1.07,1008.64
1.07,1013.7
1.07,1018.8
1.07,1023.83
1.08,1028.77
1.08,1033.8
1.08,1038.89
1.08,1043.95
1.08,1049.02
1.08,1054.11
1.09,1059.27
1.09,1064.39
1.09,1069.55
1.09,1074.77
1.09,1080.11
1.09,1085.52
1.1,1090.86
1.1,1096.33
1.1,1101.77
1.1,1107.11
1.1,1112.45
1.1,1117.8
1.11,1123.24
1.11,1128.64
1.11,1134.17
1.11,1139.67
1.11,1145.08
1.11,1150.49
1.12,1155.92
1.12,1161.42
1.12,1166.89
1.12,1172.45
1.12,1178.14
1.12,1183.8
1.13,1189.24
1.13,1194.83
1.13,1200.42
1.13,1205.95
1.13,1211.55
1.13,1217.2
1.14,1222.92
1.14,1228.55
1.14,1234.05
1.14,1239.61
1.14,1245.2
1.14,1250.7
1.15,1256.3
1.15,1261.95
1.15,1267.55
1.15,1273.14
1.15,1278.8
1.15,1284.49
1.16,1290.2
1.16,1295.92
1.16,1301.7
1.16,1307.49
1.16,1313.27
1.16,1319.11
1.17,1325.02
1.17,1330.89
1.17,1336.77
1.17,1342.58
1.17,1348.39
1.17,1354.24
1.18,1360.14
1.18,1366.08
1.18,1372.11
1.18,1378.08
1.18,1384.08
1.18,1389.95
1.19,1395.83
1.19,1401.83
1.19,1407.7
1.19,1413.61
1.19,1419.55
1.19,1425.39
1.2,1431.2
1.2,1437.02
1.2,1442.8
1.2,1448.61
1.2,1454.52
1.2,1460.49
1.21,1466.58
1.21,1472.64
1.21,1478.77
1.21,1484.86
1.21,1491.02
1.21,1497.17
1.22,1503.33
1.22,1509.64
1.22,1515.95
1.22,1522.17
1.22,1528.42
1.22,1534.67
1.23,1540.92
1.23,1547.2
1.23,1553.42
1.23,1559.64
1.23,1565.92
1.23,1572.17
1.24,1578.36
1.24,1584.55
1.24,1590.7
1.24,1596.83
1.24,1602.95
1.24,1609.02
1.25,1615.2
1.25,1621.36
1.25,1627.45
1.25,1633.61
1.25,1639.7
1.25,1645.86
1.26,1651.95
1.26,1658.08
1.26,1664.27
1.26,1670.58
1.26,1676.89
1.26,1683.27
1.27,1689.7
1.27,1696.14
1.27,1702.67
1.27,1709.17
1.27,1715.74
1.27,1722.33
1.28,1728.92
1.28,1735.55
1.28,1742.08
1.28,1748.64
1.28,1755.17
1.28,1761.67
1.29,1768.17
1.29,1774.77
1.29,1781.36
1.29,1787.95
1.29,1794.55
1.29,1801.14
1.3,1807.74
1.3,1814.27
1.3,1820.8
1.3,1827.39
1.3,1833.99
1.3,1840.61
1.31,1847.49
1.31,1854.42
1.31,1861.3
1.31,1868.14
1.31,1875.11
1.31,1882.14
1.32,1889.24
1.32,1896.39
1.32,1903.55
1.32,1910.64
1.32,1917.55
1.32,1924.36
1.33,1931.24
1.33,1938.17
1.33,1945.14
1.33,1952.08
1.33,1959.11
1.33,1965.99
1.34,1972.77
1.34,1979.61
1.34,1986.39
1.34,1993.2
1.34,2000.08
1.34,2006.99
1.35,2013.89
1.35,2020.8
1.35,2027.64
1.35,2034.64
1.35,2041.61
1.35,2048.49
1.36,2055.39
1.36,2062.33
1.36,2069.2
1.36,2076.02
1.36,2082.8
1.36,2089.45
1.37,2096.24
1.37,2102.95
1.37,2109.77
1.37,2116.74
1.37,2123.67
1.37,2130.58
1.38,2137.55
1.38,2144.58
1.38,2151.58
1.38,2158.67
1.38,2165.77
1.38,2172.91
1.39,2180.16
1.39,2187.34
1.39,2194.56
1.39,2201.87
1.39,2209.09
1.39,2216.31
1.4,2223.62
1.4,2230.97
1.4,2238.34
1.4,2245.69
1.4,2253
1.4,2260.37
1.41,2267.72
1.41,2275
1.41,2282.37
1.41,2289.59
1.41,2296.87
1.41,2304.09
1.42,2311.25
1.42,2318.41
1.42,2325.5
1.42,2332.53
1.42,2339.66
1.42,2346.87
1.43,2354.16
1.43,2361.59
1.43,2369
1.43,2376.5
1.43,2384
1.43,2391.5
1.44,2399.12
1.44,2406.69
1.44,2414.37
1.44,2422.06
1.44,2429.81
1.44,2437.56
1.45,2445.34
1.45,2453.03
1.45,2460.72
1.45,2468.37
1.45,2476.09
1.45,2483.91
1.46,2491.72
1.46,2499.47
1.46,2507.19
1.46,2514.78
1.46,2522.41
1.46,2530.06
1.47,2537.75
1.47,2545.5
1.47,2553.25
1.47,2560.97
1.47,2568.53
1.47,2576.12
1.48,2583.69
1.48,2591.31
1.48,2598.97
1.48,2606.66
1.48,2614.37
1.48,2622.19
1.49,2629.97
1.49,2637.87
1.49,2645.81
1.49,2653.75
1.49,2661.75
1.49,2669.81
1.5,2677.94
1.5,2686.12
1.5,2694.37
1.5,2702.5
1.5,2710.5
1.5,2718.47
1.51,2726.44
1.51,2734.44
1.51,2742.41
1.51,2750.41
1.51,2758.37
1.51,2766.25
1.52,2774.16
1.52,2782.06
1.52,2789.91
1.52,2797.78
1.52,2805.69
1.52,2813.62
1.53,2821.59
1.53,2829.5
1.53,2837.41
1.53,2845.31
1.53,2853.12
1.53,2861.06
1.54,2869.06
1.54,2877.19
1.54,2885.31
1.54,2893.5
1.54,2901.62
1.54,2909.81
1.55,2918
1.55,2926.25
1.55,2934.56
1.55,2942.94
1.55,2951.37
1.55,2959.69
1.56,2968
1.56,2976.31
1.56,2984.56
1.56,2992.87
1.56,3001.19
1.56,3009.5
1.57,3017.87
1.57,3026.25
1.57,3034.56
1.57,3042.81
1.57,3051.06
1.57,3059.44
1.58,3067.69
1.58,3076
1.58,3084.25
1.58,3092.5
1.58,3100.69
1.58,3108.87
1.59,3117
1.59,3125.19
1.59,3133.56
1.59,3141.94
1.59,3150.5
1.59,3159.06
1.6,3167.69
1.6,3176.31
1.6,3184.94
1.6,3193.56
1.6,3202.25
1.6,3210.94
1.61,3219.5
1.61,3228
1.61,3236.5
1.61,3244.94
1.61,3253.31
1.61,3261.75
1.62,3270.12
1.62,3278.5
1.62,3286.94
1.62,3295.5
1.62,3304.06
1.62,3312.5
1.63,3321
1.63,3329.44
1.63,3337.81
1.63,3346.12
1.63,3354.37
1.63,3362.69
1.64,3370.94
1.64,3379.19
1.64,3387.25
1.64,3395.37
1.64,3403.37
1.64,3411.44
1.65,3419.56
1.65,3427.75
1.65,3436
1.65,3444.31
1.65,3452.69
1.65,3461
1.66,3469.5
1.66,3477.94
1.66,3486.37
1.66,3494.94
1.66,3503.56
1.66,3512.25
1.67,3520.94
1.67,3529.69
1.67,3538.31
1.67,3546.94
1.67,3555.44
1.67,3564.06
1.68,3572.56
1.68,3581.12
1.68,3589.56
1.68,3597.94
1.68,3606.25
1.68,3614.37
1.69,3622.69
1.69,3630.87
1.69,3639.12
1.69,3647.31
1.69,3655.56
1.69,3663.69
1.7,3671.75
1.7,3679.75
1.7,3687.81
1.7,3695.87
1.7,3703.94
1.7,3712.12
1.71,3720.44
1.71,3728.75
1.71,3737
1.71,3745.44
1.71,3753.81
1.71,3762.31
1.72,3770.69
1.72,3779.31
1.72,3788
1.72,3796.56
1.72,3805.06
1.72,3813.44
1.73,3821.87
1.73,3830.25
1.73,3838.62
1.73,3847.06
1.73,3855.5
1.73,3863.94
1.74,3872.19
1.74,3880.44
1.74,3888.69
1.74,3897.06
1.74,3905.31
1.74,3913.62
1.75,3921.94
1.75,3930.25
1.75,3938.5
1.75,3946.62
1.75,3954.87
1.75,3963.06
1.76,3971.25
1.76,3979.31
1.76,3987.56
1.76,3995.87
1.76,4004.19
1.76,4012.5
1.77,4020.87
1.77,4029.25
1.77,4037.62
1.77,4046
1.77,4054.37
1.77,4062.81
1.78,4071.25
1.78,4079.69
1.78,4088.06
1.78,4096.37
1.78,4104.62
1.78,4112.81
1.79,4121
1.79,4129.31
1.79,4137.56
1.79,4145.94
1.79,4154.12
1.79,4162.25
1.8,4170.31
1.8,4178.37
1.8,4186.5
1.8,4194.69
1.8,4202.94
1.8,4211.25
1.81,4219.31
1.81,4227.31
1.81,4235.25
1.81,4243.19
1.81,4251.12
1.81,4259.09
1.82,4267.09
1.82,4275.16
1.82,4283.22
1.82,4291.28
1.82,4299.41
1.82,4307.53
1.83,4315.72
1.83,4323.97
1.83,4332.34
1.83,4340.78
1.83,4349.16
1.83,4357.47
1.84,4365.72
1.84,4373.84
1.84,4382.03
1.84,4390.22
1.84,4398.41
1.84,4406.72
1.85,4414.91
1.85,4423.28
1.85,4431.78
1.85,4440.22
1.85,4448.66
1.85,4457.09
1.86,4465.59
1.86,4474.09
1.86,4482.53
1.86,4490.91
1.86,4499.22
1.86,4507.22
1.87,4515
1.87,4522.87
1.87,4530.66
1.87,4538.5
1.87,4546.34
1.87,4554.25
1.88,4562.22
1.88,4570.06
1.88,4577.91
1.88,4585.87
1.88,4593.84
1.88,4601.97
1.89,4610.22
1.89,4618.53
1.89,4626.78
1.89,4634.91
1.89,4642.91
1.89,4650.91
1.9,4658.97
1.9,4667.09
1.9,4675.22
1.9,4683.28
1.9,4691.19
1.9,4698.97
1.91,4706.75
1.91,4714.47
1.91,4722.25
1.91,4730.09
1.91,4737.94
1.91,4745.69
1.92,4753.25
1.92,4760.75
1.92,4768.25
1.92,4775.75
1.92,4783.28
1.92,4790.87
1.93,4798.56
1.93,4806.34
1.93,4814.12
1.93,4821.94
1.93,4829.75
1.93,4837.69
1.94,4845.62
1.94,4853.56
1.94,4861.56
1.94,4869.62
1.94,4877.62
1.94,4885.59
1.95,4893.47
1.95,4901.25
1.95,4909.09
1.95,4916.78
1.95,4924.56
1.95,4932.41
1.96,4940.16
1.96,4947.91
1.96,4955.5
1.96,4963.06
1.96,4970.56
1.96,4978.16
1.97,4985.69
1.97,4993.19
1.97,5000.69
1.97,5008.12
1.97,5015.56
1.97,5023
1.98,5030.41
1.98,5037.78
1.98,5045.19
1.98,5052.53
1.98,5060.09
1.98,5067.78
1.99,5075.34
1.99,5082.97
1.99,5090.56
1.99,5098.12
1.99,5105.75
1.99,5113.44
2,5121.25
2,5129.09
2,5136.91
2,5144.53
2,5152.28
2,5159.91
2.01,5167.5
2.01,5175
2.01,5182.59
2.01,5190.22
2.01,5197.75
2.01,5205.22
2.02,5212.59
2.02,5220
2.02,5227.31
2.02,5234.78
2.02,5242.22
2.02,5249.72
2.03,5257.19
2.03,5264.56
2.03,5271.81
2.03,5278.97
2.03,5286.09
2.03,5293.22
2.04,5300.34
2.04,5307.47
2.04,5314.66
2.04,5321.87
2.04,5329.06
2.04,5336.19
2.05,5343.44
2.05,5350.66
2.05,5357.91
2.05,5365.19
2.05,5372.59
2.05,5379.84
2.06,5387
2.06,5394.19
2.06,5401.41
2.06,5408.66
2.06,5415.81
2.06,5423
2.07,5430.31
2.07,5437.66
2.07,5444.81
2.07,5452.03
2.07,5459.25
2.07,5466.41
2.08,5473.5
2.08,5480.59
2.08,5487.78
2.08,5494.97
2.08,5502.06
2.08,5509.06
2.09,5516
2.09,5522.91
2.09,5529.78
2.09,5536.66
2.09,5543.53
2.09,5550.47
2.1,5557.44
2.1,5564.5
2.1,5571.53
2.1,5578.53
2.1,5585.62
2.1,5592.75
2.11,5599.87
2.11,5607.16
2.11,5614.47
2.11,5621.81
2.11,5629.03
2.11,5636.22
2.12,5643.34
2.12,5650.41
2.12,5657.41
2.12,5664.56
2.12,5671.72
2.12,5678.87
2.13,5685.81
2.13,5692.69
2.13,5699.53
2.13,5706.22
2.13,5713
2.13,5720.09
2.14,5727.34
2.14,5734.53
2.14,5741.53
2.14,5748.37
2.14,5755.19
2.14,5761.94
2.15,5768.72
2.15,5775.5
2.15,5782.22
2.15,5788.87
2.15,5795.37
2.15,5801.91
2.16,5808.59
2.16,5815.31
2.16,5822.12
2.16,5829.03
2.16,5836.06
2.16,5843.12
2.17,5850.28
2.17,5857.31
2.17,5864.31
2.17,5871.28
2.17,5878.25
2.17,5885.12
2.18,5892.16
2.18,5899.12
2.18,5906.06
2.18,5913
2.18,5919.75
2.18,5926.44
2.19,5933.12
2.19,5939.72
2.19,5946.31
2.19,5952.94
2.19,5959.5
2.19,5966.03
2.2,5972.5
2.2,5979.03
2.2,5985.53
2.2,5992
2.2,5998.5
2.2,6005
2.21,6011.59
2.21,6018.28
2.21,6024.87
2.21,6031.53
2.21,6038.16
2.21,6044.78
2.22,6051.41
2.22,6058.16
2.22,6065.07
2.22,6071.98
2.22,6078.85
2.22,6085.6
2.23,6092.32
2.23,6098.98
2.23,6105.54
2.23,6112.01
2.23,6118.7
2.23,6125.2
2.24,6131.54
2.24,6137.82
2.24,6144.14
2.24,6150.42
2.24,6156.64
2.24,6162.95
2.25,6169.35
2.25,6175.85
2.25,6182.2
2.25,6188.48
2.25,6194.76
2.25,6200.95
2.26,6207.14
2.26,6213.2
2.26,6219.48
2.26,6225.82
2.26,6232.23
2.26,6238.54
2.27,6244.85
2.27,6251.2
2.27,6257.57
2.27,6264.04
2.27,6270.45
2.27,6277.14
2.28,6283.76
2.28,6290.23
2.28,6296.64
2.28,6303.04
2.28,6309.45
2.28,6315.89
2.29,6322.29
2.29,6328.76
2.29,6335.26
2.29,6341.64
2.29,6347.95
2.29,6354.26
2.3,6360.6
2.3,6366.92
2.3,6373.26
2.3,6379.64
2.3,6386.04
2.3,6392.39
2.31,6398.7
2.31,6404.95
2.31,6411.07
2.31,6417.17
2.31,6423.17
2.31,6429.17
2.32,6435.17
2.32,6441.23
2.32,6447.26
2.32,6453.26
2.32,6459.29
2.32,6465.45
2.33,6471.64
2.33,6477.79
2.33,6484.07
2.33,6490.42
2.33,6496.79
2.33,6503.01
2.34,6509.32
2.34,6515.57
2.34,6521.73
2.34,6527.79
2.34,6533.98
2.34,6540.29
2.35,6546.54
2.35,6552.67
2.35,6558.7
2.35,6564.82
2.35,6570.79
2.35,6576.73
2.36,6582.76
2.36,6588.79
2.36,6594.79
2.36,6600.73
2.36,6606.54
2.36,6612.26
2.37,6617.98
2.37,6623.57
2.37,6629.26
2.37,6635.04
2.37,6640.92
2.37,6646.76
2.38,6652.48
2.38,6658.29
2.38,6664.23
2.38,6670.29
2.38,6676.32
2.38,6682.48
2.39,6688.7
2.39,6694.98
2.39,6701.29
2.39,6707.51
2.39,6713.79
2.39,6720.01
2.4,6726.14
2.4,6732.26
2.4,6738.51
2.4,6744.7
2.4,6750.76
2.4,6756.7
2.41,6762.54
2.41,6768.42
2.41,6774.23
2.41,6780.04
2.41,6785.85
2.41,6791.64
2.42,6797.29
2.42,6802.95
2.42,6808.6
2.42,6814.2
2.42,6819.73
2.42,6825.29
2.43,6830.82
2.43,6836.45
2.43,6842.2
2.43,6848.04
2.43,6853.85
2.43,6859.76
2.44,6865.73
2.44,6871.7
2.44,6877.7
2.44,6883.7
2.44,6889.82
2.44,6895.98
2.45,6902.1
2.45,6908.14
2.45,6914.14
2.45,6920.07
2.45,6925.82
2.45,6931.64
2.46,6937.48
2.46,6943.42
2.46,6949.26
2.46,6954.98
2.46,6960.57
2.46,6966.14
2.47,6971.64
2.47,6977.2
2.47,6982.92
2.47,6988.67
2.47,6994.29
2.47,6999.82
2.48,7005.2
2.48,7010.54
2.48,7015.85
2.48,7021.42
2.48,7027.14
2.48,7032.92
2.49,7038.67
2.49,7044.42
2.49,7050.23
2.49,7055.98
2.49,7061.85
2.49,7067.79
2.5,7073.76
2.5,7079.54
2.5,7085.23
2.5,7090.85
2.5,7096.42
2.5,7101.89
2.51,7107.35
2.51,7112.79
2.51,7118.23
2.51,7123.7
2.51,7129.2
2.51,7134.76
2.52,7140.17
2.52,7145.6
2.52,7151.01
2.52,7156.51
2.52,7161.82
2.52,7167.23
2.53,7172.67
2.53,7178.07
2.53,7183.42
2.53,7188.7
2.53,7193.95
2.53,7199.2
2.54,7204.39
2.54,7209.54
2.54,7214.82
2.54,7220.17
2.54,7225.39
2.54,7230.67
2.55,7235.92
2.55,7241.14
2.55,7246.29
2.55,7251.54
2.55,7256.98
2.55,7262.48
2.56,7268.04
2.56,7273.6
2.56,7279.17
2.56,7284.7
2.56,7290.23
2.56,7295.73
2.57,7301.35
2.57,7306.95
2.57,7312.51
2.57,7317.92
2.57,7323.26
2.57,7328.39
2.58,7333.57
2.58,7338.7
2.58,7343.76
2.58,7348.95
2.58,7354.2
2.58,7359.35
2.59,7364.32
2.59,7369.2
2.59,7374.04
2.59,7378.82
2.59,7383.6
2.59,7388.42
2.6,7393.35
2.6,7398.26
2.6,7403.04
2.6,7407.95
2.6,7412.98
2.6,7418.17
2.61,7423.29
2.61,7428.6
2.61,7434.04
2.61,7439.54
2.61,7444.92
2.61,7450.32
2.62,7455.73
2.62,7460.98
2.62,7466.2
2.62,7471.32
2.62,7476.64
2.62,7481.92
2.63,7487.07
2.63,7492.1
2.63,7497.1
2.63,7502.07
2.63,7506.92
2.63,7511.76
2.64,7516.7
2.64,7521.67
2.64,7526.51
2.64,7531.32
2.64,7536.1
2.64,7540.89
2.65,7545.57
2.65,7550.26
2.65,7555.07
2.65,7560.07
2.65,7564.98
2.65,7569.92
2.66,7574.85
2.66,7579.82
2.66,7584.82
2.66,7589.85
2.66,7594.95
2.66,7600.14
2.67,7605.39
2.67,7610.51
2.67,7615.64
2.67,7620.7
2.67,7625.79
2.67,7630.73
2.68,7635.57
2.68,7640.45
2.68,7645.35
2.68,7650.1
2.68,7654.64
2.68,7659.23
2.69,7663.82
2.69,7668.26
2.69,7672.64
2.69,7677.29
2.69,7682.04
2.69,7686.7
2.7,7691.29
2.7,7695.85
2.7,7700.45
2.7,7704.89
2.7,7709.26
2.7,7713.79
2.71,7718.35
2.71,7722.92
2.71,7727.45
2.71,7731.98
2.71,7736.57
2.71,7741.23
2.72,7745.92
2.72,7750.73
2.72,7755.64
2.72,7760.57
2.72,7765.48
2.72,7770.23
2.73,7774.85
2.73,7779.54
2.73,7784.23
2.73,7788.82
2.73,7793.45
2.73,7798.14
2.74,7802.82
2.74,7807.42
2.74,7811.92
2.74,7816.54
2.74,7821.14
2.74,7825.73
2.75,7830.35
2.75,7835.1
2.75,7839.82
2.75,7844.39
2.75,7848.92
2.75,7853.35
2.76,7857.76
2.76,7862.01
2.76,7866.23
2.76,7870.64
2.76,7874.95
2.76,7879.17
2.77,7883.42
2.77,7887.7
2.77,7891.92
2.77,7896.2
2.77,7900.51
2.77,7904.89
2.78,7909.48
2.78,7914.04
2.78,7918.6
2.78,7923.23
2.78,7927.76
2.78,7932.32
2.79,7936.89
2.79,7941.48
2.79,7946.2
2.79,7950.92
2.79,7955.51
2.79,7960.07
2.8,7964.54
2.8,7968.85
2.8,7973.1
2.8,7977.51
2.8,7981.92
2.8,7986.32
2.81,7990.6
2.81,7994.82
2.81,7998.98
2.81,8003.01
2.81,8007
2.81,8010.92
2.82,8014.92
2.82,8018.82
2.82,8022.76
2.82,8026.85
2.82,8030.95
2.82,8035.07
2.83,8039.23
2.83,8043.51
2.83,8047.92
2.83,8052.54
2.83,8057.26
2.83,8062.04
2.84,8066.76
2.84,8071.32
2.84,8075.89
2.84,8080.45
2.84,8085.07
2.84,8089.64
2.85,8094.23
2.85,8098.67
2.85,8103.04
2.85,8107.39
2.85,8111.6
2.85,8115.79
2.86,8119.92
2.86,8124.04
2.86,8128.1
2.86,8132.14
2.86,8136.12
2.86,8140.09
2.87,8143.98
2.87,8147.78
2.87,8151.56
2.87,8155.39
2.87,8159.42
2.87,8163.51
2.88,8167.7
2.88,8171.95
2.88,8176.23
2.88,8180.54
2.88,8184.92
2.88,8189.39
2.89,8193.98
2.89,8198.67
2.89,8203.32
2.89,8207.85
2.89,8212.35
2.89,8216.85
2.9,8221.17
2.9,8225.39
2.9,8229.54
2.9,8233.73
2.9,8237.95
2.9,8242.04
2.91,8246.04
2.91,8250.04
2.91,8254.03
2.91,8257.92
2.91,8261.92
2.91,8266.1
2.92,8270.39
2.92,8274.57
2.92,8278.7
2.92,8282.89
2.92,8286.89
2.92,8290.73
2.93,8294.57
2.93,8298.51
2.93,8302.48
2.93,8306.48
2.93,8310.43
2.93,8314.43
2.94,8318.68
2.94,8323
2.94,8327.43
2.94,8331.96
2.94,8336.56
2.94,8341.15
2.95,8345.68
2.95,8350.03
2.95,8354.34
2.95,8358.59
2.95,8362.59
2.95,8366.56
2.96,8370.62
2.96,8374.71
2.96,8378.78
2.96,8382.76
2.96,8386.82
2.96,8390.92
2.97,8395.04
2.97,8399.14
2.97,8403.26
2.97,8407.42
2.97,8411.42
2.97,8415.48
2.98,8419.45
2.98,8423.34
2.98,8427.14
2.98,8430.92
2.98,8434.68
2.98,8438.53
2.99,8442.37
2.99,8446.14
2.99,8450.04
2.99,8453.85
2.99,8457.73
2.99,8461.64
3,8465.57
3,8469.57
3,8473.7
3,8477.85
3,8482.01
3,8486.23
3.01,8490.39
3.01,8494.64
3.01,8498.85
3.01,8503.07
3.01,8507.39
3.01,8511.73
3.02,8515.89
3.02,8520.01
3.02,8524.1
3.02,8528.06
3.02,8531.95
3.02,8535.78
3.03,8539.68
3.03,8543.57
3.03,8547.28
3.03,8550.95
3.03,8554.56
3.03,8557.96
3.04,8561.21
3.04,8564.56
3.04,8567.9
3.04,8571.34
3.04,8574.79
3.04,8578.26
3.05,8581.87
3.05,8585.37
3.05,8588.98
3.05,8592.75
3.05,8596.65
3.05,8600.71
3.06,8604.74
3.06,8608.74
3.06,8612.68
3.06,8616.59
3.06,8620.42
3.06,8624.24
3.07,8628.1
3.07,8632.07
3.07,8636.1
3.07,8639.96
3.07,8643.73
3.07,8647.45
3.08,8651.31
3.08,8655.09
3.08,8658.81
3.08,8662.67
3.08,8666.38
3.08,8669.96
3.09,8673.46
3.09,8676.98
3.09,8680.42
3.09,8683.85
3.09,8687.12
3.09,8690.52
3.1,8694.13
3.1,8697.7
3.1,8701.4
3.1,8705.1
3.1,8708.88
3.1,8712.71
3.11,8716.62
3.11,8720.51
3.11,8724.57
3.11,8728.67
3.11,8732.76
3.11,8736.76
3.12,8740.71
3.12,8744.65
3.12,8748.43
3.12,8752.13
3.12,8755.85
3.12,8759.59
3.13,8763.29
3.13,8766.79
3.13,8770.2
3.13,8773.56
3.13,8776.85
3.13,8780.23
3.14,8783.71
3.14,8787.18
3.14,8790.76
3.14,8794.31
3.14,8797.76
3.14,8801.21
3.15,8804.62
3.15,8807.96
3.15,8811.26
3.15,8814.59
3.15,8817.9
3.15,8821.38
3.16,8824.81
3.16,8828.24
3.16,8831.71
3.16,8835.18
3.16,8838.65
3.16,8842.35
3.17,8846.13
3.17,8849.82
3.17,8853.52
3.17,8857.1
3.17,8860.56
3.17,8864.01
3.18,8867.34
3.18,8870.77
3.18,8874.38
3.18,8877.85
3.18,8881.4
3.18,8884.99
3.19,8888.49
3.19,8892.04
3.19,8895.63
3.19,8899.18
3.19,8902.85
3.19,8906.48
3.2,8909.99
3.2,8913.48
3.2,8916.82
3.2,8920.07
3.2,8923.26
3.2,8926.34
3.21,8929.45
3.21,8932.62
3.21,8935.77
3.21,8938.95
3.21,8942.13
3.21,8945.31
3.22,8948.49
3.22,8951.67
3.22,8954.93
3.22,8958.29
3.22,8961.74
3.22,8965.21
3.23,8968.7
3.23,8972.23
3.23,8975.77
3.23,8979.37
3.23,8982.96
3.23,8986.67
3.24,8990.42
3.24,8994.13
3.24,8997.74
3.24,9001.32
3.24,9004.81
3.24,9008.13
3.25,9011.4
3.25,9014.68
3.25,9018.1
3.25,9021.46
3.25,9024.63
3.25,9027.76
3.26,9030.82
3.26,9033.77
3.26,9036.73
3.26,9039.7
3.26,9042.74
3.26,9045.77
3.27,9048.74
3.27,9051.71
3.27,9054.85
3.27,9058.09
3.27,9061.34
3.27,9064.74
3.28,9068.27
3.28,9071.87
3.28,9075.52
3.28,9079.09
3.28,9082.59
3.28,9086.07
3.29,9089.48
3.29,9092.85
3.29,9096.26
3.29,9099.68
3.29,9103.01
3.29,9106.26
3.3,9109.38
3.3,9112.51
3.3,9115.68
3.3,9118.71
3.3,9121.81
3.3,9124.87
3.31,9127.85
3.31,9130.73
3.31,9133.57
3.31,9136.43
3.31,9139.23
3.31,9142.02
3.32,9144.76
3.32,9147.71
3.32,9150.6
3.32,9153.52
3.32,9156.62
3.32,9159.73
3.33,9162.85
3.33,9165.98
3.33,9169.1
3.33,9172.34
3.33,9175.67
3.33,9179.01
3.34,9182.37
3.34,9185.62
3.34,9188.76
3.34,9191.92
3.34,9195.01
3.34,9198.09
3.35,9201.24
3.35,9204.38
3.35,9207.48
3.35,9210.4
3.35,9213.29
3.35,9216.2
3.36,9219.15
3.36,9221.99
3.36,9224.99
3.36,9228.06
3.36,9231.07
3.36,9234.01
3.37,9236.93
3.37,9239.84
3.37,9242.68
3.37,9245.46
3.37,9248.21
3.37,9251.07
3.38,9253.92
3.38,9256.74
3.38,9259.56
3.38,9262.4
3.38,9265.23
3.38,9268.09
3.39,9270.92
3.39,9273.82
3.39,9276.84
3.39,9279.79
3.39,9282.63
3.39,9285.38
3.4,9288.15
3.4,9290.85
3.4,9293.52
3.4,9296.24
3.4,9299.2
3.4,9302.18
3.41,9305.06
3.41,9307.87
3.41,9310.73
3.41,9313.68
3.41,9316.52
3.41,9319.45
3.42,9322.45
3.42,9325.45
3.42,9328.26
3.42,9330.99
3.42,9333.71
3.42,9336.38
3.43,9338.98
3.43,9341.49
3.43,9344.15
3.43,9346.77
3.43,9349.4
3.43,9351.99
3.44,9354.65
3.44,9357.31
3.44,9360.02
3.44,9362.73
3.44,9365.45
3.44,9368.29
3.45,9371.23
3.45,9374.17
3.45,9377.1
3.45,9380.13
3.45,9383.15
3.45,9386.07
3.46,9388.95
3.46,9391.93
3.46,9395.01
3.46,9398.1
3.46,9401.01
3.46,9403.92
3.47,9406.67
3.47,9409.26
3.47,9411.77
3.47,9414.46
3.47,9417.12
3.47,9419.79
3.48,9422.27
3.48,9424.63
3.48,9426.87
3.48,9428.99
3.48,9431.15
3.48,9433.24
3.49,9435.37
3.49,9437.45
3.49,9439.6
3.49,9441.73
3.49,9444.01
3.49,9446.35
3.5,9448.79
3.5,9451.37
3.5,9454.1
3.5,9457.1
3.5,9460.17
3.5,9463.17
3.51,9466.07
3.51,9468.96
3.51,9471.79
3.51,9474.54
3.51,9477.31
3.51,9480.09
3.52,9482.74
3.52,9485.24
3.52,9487.74
3.52,9490.18
3.52,9492.65
3.52,9495.04
3.53,9497.43
3.53,9499.88
3.53,9502.27
3.53,9504.65
3.53,9506.99
3.53,9509.27
3.54,9511.49
3.54,9513.68
3.54,9515.92
3.54,9518.29
3.54,9520.7
3.54,9523.23
3.55,9525.82
3.55,9528.45
3.55,9531.13
3.55,9533.82
3.55,9536.52
3.55,9539.31
3.56,9542.15
3.56,9544.99
3.56,9547.84
3.56,9550.59
3.56,9553.32
3.56,9555.92
3.57,9558.43
3.57,9560.95
3.57,9563.59
3.57,9566.21
3.57,9568.7
3.57,9571.06
3.58,9573.42
3.58,9575.71
3.58,9577.95
3.58,9580.2
3.58,9582.6
3.58,9585.1
3.59,9587.48
3.59,9589.87
3.59,9592.29
3.59,9594.67
3.59,9596.9
3.59,9599.15
3.6,9601.42
3.6,9603.87
3.6,9606.27
3.6,9608.62
3.6,9611.01
3.6,9613.38
